Folder: COO1_COO4_geochem

Note: README.md
# COO1_COO4_geochem

This git contains the data and scripts for a study of water quality history as represented in geochemical proxies of dissolved oxygen for Coos Bay Estuary. This study has been published as:

Johnson, Geoffrey M.; Sutherland, David A.; Roering, Josh J.; Mathabane, Nathan; Gavin, Daniel G. 2019. Estuarine dissolved oxygen history inferred from sedimentary trace metal and organic matter preservation. Estuaries and Coasts. In revision.

File: COO4_xrf.csv
depth,File #,SiO2,SiO2 Err,Ca,Ca Err,Ti,Ti Err,V,V Err,Cr,Cr Err,Mn,Mn Err,Fe,Fe Err,Co,Co Err,Ni,Ni Err,Cu,Cu Err,Zn,Zn Err,As,As Err,Se,Se Err,Br,Br Err,Rb,Rb Err,Sr,Sr Err,Y,Y Err,Zr,Zr Err,Nb,Nb Err,Mo,Mo Err,Ru,Ru Err,Rh,Rh Err,Pd,Pd Err,Ag,Ag Err,Cd,Cd Err,In,In Err,Sn,Sn Err,Sb,Sb Err,Te,Te Err,I,I Err,Ba,Ba Err,Ce,Ce Err,Hf,Hf Err,Ta,Ta Err,W,W Err,Re,Re Err,Os,Os Err,Ir,Ir Err,Pt,Pt Err,Au,Au Err,Hg,Hg Err,Pb,Pb Err,Bi,Bi Err,Th,Th Err,U,U Err,,
1,67,25.8,0.652346,0.802,0.0348,0.194,0.0038,0.0134,0.0086,0.0171,0.000662487,0.0211,0.000893806,3.3,0.004714045,0,0.0001,0.0037,0.000177169,0.0023,0.000195078,0.0052,0.000169967,0.0011,0.0003,0.0008,0.0003,0.0004,0,0.0055,0.0003,0.0241,0.0004,,,0.0131,0.0004,0,0.0006,0.0004,0.000285287,,,,,0,0.001,0,0.0006,0,0.0014,,,0,0.0006,0,0.0049,,,,,0.0451,0.0431,0,0.0087,0,0.0005,0.0002,0.0001,0,0.0006,,,,,,,0,0.001,0,0.0047,0,0.0001,0,0.0011,0,0.0015,0,0.0018,0,0.0009,,
5,71,16.6,0.652346,0.595,0.0284,0.2,0.0022,0.0123,0.0078,0.0191,0.000662487,0.023,0.000893806,3.68,0.004714045,0,0.0001,0.0035,0.000177169,0.0037,0.000195078,0.006,0.000169967,0.0009,0.0003,0.0008,0.0003,0.0006,0,0.0061,0.0003,0.0213,0.0004,,,0.0117,0.0003,0.0006,0.0006,0.0011,0.000285287,,,,,0,0.0009,0,0.0005,0.0009,0.0012,,,0,0.0007,0,0.0043,,,,,0.0413,0.0388,0,0.0081,0,0.0005,0.0001,0.0001,0,0.0006,,,,,,,0,0.0009,0,0.0046,0,0.0001,0,0.001,0,0.0012,0,0.0017,0,0.0008,,
9,93,26.1,0.652346,0.742,0.027,0.173,0.003,0.0198,0.0035,0.0223,0.000662487,0.0225,0.000893806,3.4,0.004714045,0,0.0001,0.0032,0.000177169,0.0034,0.000195078,0.0061,0.000169967,0.0011,0.0003,0.0008,0.0003,0.0007,0,0.0062,0.0003,0.0241,0.0003,,,0.0087,0.0003,0,0.0005,0,0.0004,,,,,0,0.0008,0,0.0005,0,0.0012,,,0,0.0006,0,0.0042,,,,,0.0427,0.0402,0,0.0117,0,0.0004,0.0001,0.0001,0,0.0005,,,,,,,0,0.0008,0,0.0004,0,0,0,0.0009,0,0.001,0,0.0015,0,0.0007,,
13,95,26.9,0.652346,0.704,0.0264,0.162,0.0029,0.0198,0.0034,0.0107,0.000662487,0.0203,0.000893806,3.25,0.004714045,0,0.0001,0.0028,0.000177169,0.0033,0.000195078,0.0057,0.000169967,0.0007,0.0003,0.0008,0.0003,0.0005,0,0.006,0.0003,0.0241,0.0003,,,0.0108,0.0003,0,0.0005,0.0004,0.0004,,,,,0,0.0008,0,0.0005,0,0.0016,,,0,0.0005,0,0.0041,,,,,0.0309,0.0383,0,0.0113,0,0.0004,0.0002,0.0001,0,0.0005,,,,,,,0,0.0008,0,0.0004,0,0,0,0.0009,0,0.0012,0,0.0014,0,0.0007,,
17,81,23.1,0.652346,0.653,0.0299,0.143,0.0028,0.0131,0.0076,0.0159,0.000662487,0.0212,0.000893806,3.01,0.004714045,0,0.0001,0.0033,0.000177169,0.0029,0.000195078,0.0053,0.000169967,0.0006,0.0003,0.0008,0.0003,0.0005,0,0.0062,0.0003,0.0231,0.0004,,,0.0114,0.0003,0,0.0006,0.0007,0.000285287,,,,,0,0.0009,0,0.0005,0,0.0012,,,0,0.0006,0,0.0044,,,,,0.0275,0.0379,0,0.0077,0,0.0004,0.0002,0.0001,0,0.0005,,,,,,,0,0.0009,0,0.0045,0,0.0001,0,0.001,0,0.0011,0,0.0016,0,0.0008,,
21,85,23.5,0.652346,0.642,0.0301,0.138,0.0029,0.0119,0.0075,0.0076,0.000662487,0.0167,0.000893806,2.8,0.004714045,0,0.0001,0.0022,0.000177169,0.0026,0.000195078,0.005,0.000169967,0.0008,0.0003,0.0009,0.0003,0.0004,0,0.0057,0.0003,0.0247,0.0004,,,0.0114,0.0003,0,0.0006,0.0009,0.000285287,,,,,0,0.0009,0,0.0005,0,0.0017,,,0,0.0006,0,0.0044,,,,,0.0437,0.0375,0,0.0058,0,0.0004,0.0001,0.0001,0,0.0005,,,,,,,0,0.0009,0,0.0044,0,0.0001,0,0.0008,0,0.0011,0,0.0017,0,0.0008,,
25,88,18.3,0.652346,0.626,0.0296,0.2,0.0024,0.0141,0.0077,0.0103,0.000662487,0.0185,0.000893806,2.8,0.004714045,0,0.0001,0.0025,0.000177169,0.0025,0.000195078,0.0049,0.000169967,0.0007,0.0003,0.0008,0.0003,0.0002,0,0.0053,0.0003,0.0253,0.0004,,,0.0136,0.0003,0,0.0006,0.0007,0.000285287,,,,,0,0.0009,0,0.0005,0,0.0012,,,0,0.0006,0,0.0045,,,,,0.0202,0.0379,0,0.0076,0,0.0004,0.0001,0.0001,0,0.0006,,,,,,,0,0.0009,0,0.0044,0,0.0001,0,0.001,0,0.0011,0,0.0016,0,0.0008,,
29,,27.3,0.652346,0.678,0.0261,0.159,0.0029,0.0198,0.0032,0.0112,0.000662487,0.0167,0.000893806,2.49,0.004714045,0,0.0001,0.0031,0.000177169,0.0028,0.000195078,0.0049,0.000169967,0.0006,0.0002,0.0008,0.0003,0.0003,0,0.0051,0.0003,0.0258,0.0003,,,0.0081,0.0003,0.0002,0.0005,0,0.0004,,,,,0,0.0008,0,0.0005,0,0.0012,,,0,0.0005,0,0.0041,,,,,0.0231,0.0362,0,0.0106,0,0.0004,0.0001,0.0001,0,0.0005,,,,,,,0,0.0008,0,0.0004,0,0,0,0.0009,0,0.0012,0,0.0014,0,0.0007,,
33,,27.9,0.652346,0.705,0.0268,0.166,0.003,0.0198,0.0031,0.0098,0.000662487,0.0158,0.000893806,2.5,0.004714045,0,0.0001,0.0021,0.000177169,0.0025,0.000195078,0.0043,0.000169967,0.0007,0.0002,0.0008,0.0003,0.0003,0,0.0056,0.0003,0.0261,0.0003,,,0.0081,0.0003,0,0.0005,0.0001,0.0003,,,,,0,0.0008,0,0.0005,0,0.0012,,,0,0.0006,0,0.004,,,,,0,0.0351,0,0.0035,0,0.0102,0,0.0004,0,0.0001,0,0.0005,,,,,,,0,0.0008,0,0.0004,0,0,0,0.0009,0,0.0011,0,0.0014,0,0.0007
37,,25.4,0.652346,0.737,0.0267,0.159,0.0028,0.0198,0.0029,0.038,0.000662487,0.0153,0.000893806,2.57,0.004714045,0,0.0001,0.0023,0.000177169,0.0027,0.000195078,0.0043,0.000169967,0.001,0.0002,0.0008,0.0003,0.0002,0,0.0057,0.0002,0.0254,0.0003,,,0.0104,0.0003,0,0.0005,0.0009,0.0003,,,,,0,0.0007,0.0012,0.0005,0,0.0011,,,0,0.0004,0,0.0039,,,,,0.0373,0.0335,0,0.0102,0,0.0004,0.0001,0.0001,0,0.0004,,,,,,,0,0.0007,0,0.0004,0,0,0,0.0008,0,0.0009,0,0.0014,0,0.0007,,
41,93,20.1,0.652346,0.6,0.0293,0.142,0.0023,0.0119,0.0071,0.0084,0.000662487,0.0108,0.000893806,2.26,0.004714045,0,0.0001,0.0017,0.000177169,0.0025,0.000195078,0.0039,0.000169967,0.001,0.0003,0.0009,0.0003,0.0002,0,0.0053,0.0003,0.0259,0.0004,,,0.0102,0.0003,0,0.0006,0,0.000285287,,,,,0,0.0009,0,0.0008,0,0.0013,,,0,0.0006,0,0.0045,,,,,0.0328,0.0359,0,0.0073,0,0.0005,0,0.0001,0,0.0005,,,,,,,0,0.0009,0,0.0045,0,0.0001,0,0.001,0,0.0014,0,0.0017,0,0.0008,,
45,97,18.1,0.652346,0.6,0.0291,0.144,0.0021,0.0144,0.007,0.0084,0.000662487,0.0153,0.000893806,2.3,0.004714045,0,0.0001,0.0018,0.000177169,0.0027,0.000195078,0.0042,0.000169967,0.0005,0.0003,0.0009,0.0003,0.0003,0,0.0056,0.0003,0.024,0.0004,,,0.009,0.0003,0,0.0006,0.0007,0.000285287,,,,,0,0.0009,0,0.0005,0,0.0017,,,0,0.0005,0,0.0044,,,,,0.0172,0.0348,0,0.0053,0,0.0004,0.0001,0.0001,0,0.0005,,,,,,,0,0.0009,0,0.0043,0,0.0001,0,0.0008,0,0.0011,0,0.0018,0,0.0008,,
49,101,20,0.652346,0.657,0.0303,0.206,0.0026,0.0119,0.0075,0.0081,0.000662487,0.0213,0.000893806,2.85,0.004714045,0,0.0001,0.0025,0.000177169,0.0025,0.000195078,0.0048,0.000169967,0.0006,0.0003,0.0008,0.0003,0.0003,0,0.0058,0.0003,0.0255,0.0004,,,0.0099,0.0003,0,0.0006,0.0005,0.000285287,,,,,0,0.0009,0,0.0005,0,0.0013,,,0,0.0006,0,0.0045,,,,,0.0288,0.0374,0,0.0075,0,0.0004,0.0002,0.0001,0,0.0005,,,,,,,0,0.0009,0,0.0043,0,0.0001,0,0.001,0,0.0011,0,0.0017,0,0.0008,,
53,105,26.9,0.652346,0.799,0.0322,0.171,0.0034,0.0119,0.0079,0.0102,0.000662487,0.0183,0.000893806,2.77,0.004714045,0,0.0001,0.0027,0.000177169,0.0027,0.000195078,0.0048,0.000169967,0.0008,0.0003,0.0008,0.0003,0.0002,0,0.0056,0.0003,0.0271,0.0004,,,0.0093,0.0003,0,0.0006,0.0004,0.000285287,,,,,0,0.0009,0,0.0008,0,0.0017,,,0,0.0006,0,0.0046,,,,,0.0412,0.0396,0,0.006,0,0.0005,0.0002,0.0001,0,0.0006,,,,,,,0,0.0009,0,0.0045,0,0.0001,0,0.0011,0,0.0014,0,0.0018,0,0.0008,,
57,109,24,0.652346,0.665,0.03,0.138,0.0029,0.0119,0.0073,0.0147,0.000662487,0.0158,0.000893806,2.59,0.004714045,0,0.0001,0.0025,0.000177169,0.0025,0.000195078,0.0046,0.000169967,0.0006,0.0003,0.0008,0.0003,0.0003,0,0.0055,0.0003,0.0266,0.0004,,,0.0107,0.0003,0.0002,0.0008,0,0.000285287,,,,,0,0.0009,0,0.0006,0,0.0013,,,0,0.0006,0,0.0046,,,,,0.0194,0.0371,0,0.0076,0,0.0004,0.0001,0.0001,0,0.0005,,,,,,,0,0.0009,0,0.0046,0,0.0001,0,0.001,0,0.0014,0,0.0017,0,0.0008,,
61,113,20.3,0.652346,0.667,0.03,0.21,0.0026,0.0167,0.0075,0.0088,0.000662487,0.0175,0.000893806,2.96,0.004714045,0,0.0001,0.0027,0.000177169,0.003,0.000195078,0.0048,0.000169967,0.0008,0.0003,0.0008,0.0003,0.0003,0,0.0054,0.0003,0.0233,0.0004,,,0.0084,0.0003,0,0.0006,0.0009,0.000285287,,,,,0,0.0009,0.0014,0.0005,0,0.0012,,,0,0.0006,0,0.0044,,,,,0.0339,0.0372,0,0.0074,0,0.0004,0.0001,0.0001,0,0.0005,,,,,,,0,0.0009,0,0.0043,0,0.0001,0,0.001,0,0.0011,0,0.0016,0,0.0008,,
65,117,23.2,0.652346,0.658,0.0304,0.16,0.003,0.0147,0.0075,0.0078,0.000662487,0.0173,0.000893806,2.79,0.004714045,0,0.0001,0.002,0.000177169,0.0026,0.000195078,0.0044,0.000169967,0.001,0.0003,0.0008,0.0003,0.0003,0,0.0055,0.0003,0.0264,0.0004,,,0.0094,0.0003,0,0.0008,0.0005,0.000285287,,,,,0,0.0009,0,0.0005,0,0.0012,,,0,0.0006,0,0.0045,,,,,0.0372,0.0375,0,0.0057,0,0.0004,0.0002,0.0001,0,0.0005,,,,,,,0,0.0009,0,0.0043,0,0.0001,0,0.001,0,0.0011,0,0.0017,0,0.0008,,
69,121,22.9,0.652346,0.709,0.0309,0.144,0.0029,0.0143,0.0074,0.0084,0.000662487,0.0186,0.000893806,2.91,0.004714045,0,0.0001,0.0027,0.000177169,0.0026,0.000195078,0.0048,0.000169967,0.0008,0.0003,0.0008,0.0003,0.0003,0,0.0058,0.0003,0.0249,0.0004,,,0.0088,0.0003,0.0001,0.0008,0.0008,0.000285287,,,,,0,0.0009,0,0.0005,0,0.0012,,,0,0.0006,0,0.0045,,,,,0.0239,0.0368,0,0.0056,0,0.0005,0.0002,0.0001,0,0.0005,,,,,,,0,0.0009,0,0.0043,0,0.0001,0,0.001,0,0.0011,0,0.0018,0,0.0008,,
73,125,23.6,0.652346,0.678,0.0305,0.139,0.0029,0.0119,0.0078,0.0248,0.000662487,0.0163,0.000893806,2.58,0.004714045,0,0.0001,0.0027,0.000177169,0.0026,0.000195078,0.0048,0.000169967,0.0005,0.0003,0.0009,0.0003,0.0002,0,0.0055,0.0003,0.0271,0.0004,,,0.0096,0.0003,0.0002,0.0006,0,0.000285287,,,,,0,0.0009,0,0.0008,0,0.0013,,,0,0.0008,0,0.0046,,,,,0.0265,0.0389,0,0.0079,0,0.0005,0.0001,0.0001,0,0.0006,,,,,,,0,0.0009,0,0.0045,0,0.0001,0,0.001,0,0.0012,0,0.0018,0,0.0008,,
77,129,20.6,0.652346,0.635,0.0298,0.192,0.0026,0.0119,0.0073,0.0152,0.000662487,0.0172,0.000893806,2.8,0.004714045,0,0.0001,0.0022,0.000177169,0.0028,0.000195078,0.005,0.000169967,0.0008,0.0003,0.0008,0.0003,0.0003,0,0.0055,0.0003,0.0251,0.0004,,,0.0101,0.0003,0,0.0006,0.0006,0.000285287,,,,,0,0.0009,0,0.0005,0,0.0012,,,0,0.0006,0,0.0044,,,,,0.0335,0.0366,0,0.0076,0,0.0004,0.0002,0.0001,0,0.0005,,,,,,,0,0.0009,0,0.0044,0,0.0001,0,0.001,0,0.0011,0,0.0016,0,0.0008,,
81,134,21.6,0.652346,0.669,0.0303,0.15,0.0028,0.0119,0.0074,0.0084,0.000662487,0.0186,0.000893806,2.86,0.004714045,0,0.0001,0.0026,0.000177169,0.0025,0.000195078,0.0043,0.000169967,0.0007,0.0003,0.0008,0.0003,0.0003,0,0.0052,0.0003,0.0243,0.0004,,,0.0084,0.0003,0,0.0006,0.0003,0.000285287,,,,,0,0.0009,0,0.0005,0,0.0017,,,0,0.0006,0,0.0032,,,,,0.035,0.0371,0,0.0074,0,0.0004,0.0002,0.0001,0,0.0005,,,,,,,0,0.0009,0,0.0043,0,0.0001,0,0.001,0,0.0011,0,0.0018,0,0.0008,,
82,133,25.6,0.652346,0.655,0.0302,0.153,0.0032,0.0146,0.0078,0.0122,0.000662487,0.0171,0.000893806,2.84,0.004714045,0,0.0001,0.0022,0.000177169,0.0023,0.000195078,0.0047,0.000169967,0.0004,0.0003,0.0008,0.0003,0.0003,0,0.0058,0.0003,0.0251,0.0004,,,0.0101,0.0003,0.0001,0.0006,0,0.000285287,,,,,0,0.0009,0,0.0008,0,0.0018,,,0,0.0006,0,0.0046,,,,,0.0225,0.0388,0,0.0078,0,0.0004,0.0001,0.0001,0,0.0005,,,,,,,0,0.0009,0,0.0045,0,0.0001,0,0.0008,0,0.0014,0,0.0017,0,0.0008,,